run,trial,global time,run time,morph level,couple,response,response time
1,1,1747992,962,15,6,0,
1,2,1753895,6865,95,4,0,
1,3,1758797,11767,75,1,0,
1,4,1762198,15168,5,6,0,
1,5,1766583,19553,45,2,0,
1,6,1771785,24755,55,8,0,
1,7,1776188,29158,25,3,0,
1,8,1781590,34560,35,4,1,1413
1,9,1787292,40262,85,6,0,
1,10,1791694,44664,55,1,0,
1,11,1796796,49766,75,4,0,
1,12,1801297,54267,65,9,0,
1,13,1805499,58469,45,8,0,
1,14,1810084,63054,45,1,0,
1,15,1814487,67457,15,7,0,
1,16,1820288,73258,95,5,0,
1,17,1825674,78644,45,9,0,
1,18,1836012,88982,95,1,0,
1,19,1839976,92946,25,8,0,
1,20,1839976,92946,25,8,0,
2,1,45173,853,15,6,0,
2,2,51076,6756,95,4,1,675
2,3,55977,11657,75,1,0,
2,4,59378,15058,5,6,1,1375
2,5,63781,19461,45,2,1,1027
2,6,68983,24663,55,8,0,
2,7,73384,29064,25,3,0,
2,8,78787,34467,35,4,1,741
2,9,84489,40169,85,6,1,1267
2,10,88890,44570,55,1,0,
2,11,93993,49673,75,4,1,1174
2,12,98495,54175,65,9,0,
2,13,102696,58376,45,8,0,
2,14,107298,62978,45,1,1,872
2,15,111700,67380,15,7,0,
2,16,117502,73182,95,5,1,716
2,17,122904,78584,45,9,0,
2,18,132708,88388,95,1,0,
2,19,136709,92389,25,8,1,894
2,20,141511,97191,5,5,0,
2,21,146914,102594,55,9,0,
2,22,151116,106796,55,6,1,1254
2,23,156518,112198,35,1,0,
2,24,161520,117200,65,2,1,979
2,25,165321,121001,65,5,0,
2,26,169523,125203,35,3,1,4354
2,27,174325,130005,5,4,0,
2,28,179327,135007,95,7,0,
2,29,183729,139409,85,8,0,
2,30,190215,145895,85,9,0,
2,31,194299,149979,75,5,1,916
2,32,198401,154081,95,8,0,
2,33,203987,159667,25,2,1,1146
2,34,208188,163868,65,6,1,1285
2,35,212690,168370,45,4,0,
2,36,217292,172972,85,1,0,
2,37,223594,179274,65,1,0,
2,38,227696,183376,65,3,0,
2,39,238100,193780,5,3,0,
2,40,242502,198182,5,2,1,846
2,41,247604,203284,95,2,0,
2,42,252389,208069,35,2,1,867
2,43,256391,212071,55,2,1,1008
2,44,271081,226761,95,6,1,866
2,45,275282,230962,55,5,0,
2,46,280284,235964,25,4,0,
2,47,286086,241766,95,9,0,
2,48,289688,245368,45,3,1,929
2,49,295390,251070,55,7,0,
2,50,300675,256355,15,3,0,
2,51,305260,260940,5,8,1,1313
2,52,309863,265543,85,7,0,
2,53,313864,269544,55,3,0,
2,54,318866,274546,55,4,1,862
2,55,323968,279648,45,7,0,
2,56,328253,283933,35,6,0,
2,57,333239,288919,35,7,0,
2,58,337240,292920,85,3,1,2237
2,59,343542,299222,15,8,1,979
2,60,347144,302824,75,6,1,1061
2,61,352546,308226,25,9,0,
2,62,357032,312712,25,6,0,
2,63,362434,318114,25,5,1,1161
2,64,367835,323515,45,5,1,930
2,65,371437,327117,55,1,0,
2,66,376922,332602,85,5,1,969
2,67,382025,337705,65,8,0,
2,68,385327,341007,15,5,1,1150
2,69,391529,347209,85,4,0,
2,70,401016,356696,25,7,0,
2,71,406301,361981,5,7,1,669
2,72,409703,365383,95,3,0,
2,73,415388,371068,15,1,1,1242
2,74,420491,376171,55,6,0,
2,75,423892,379572,55,7,0,
2,76,429677,385357,5,1,0,
2,77,434080,389760,45,6,0,
2,78,438781,394461,75,8,0,
2,79,444466,400146,75,2,1,850
2,80,454071,409751,35,5,1,896
2,81,457572,413252,5,9,0,
2,82,462674,418354,35,8,1,973
2,83,467076,422756,45,7,0,
2,84,471978,427658,45,3,0,
2,85,476980,432660,25,1,1,642
2,86,482782,438462,85,2,0,
2,87,486284,441964,95,2,0,
2,88,491085,446765,5,9,0,
2,89,497288,452968,75,7,0,
2,90,500889,456569,75,9,0,
2,91,506391,462071,65,7,0,
2,92,511494,467174,5,6,0,
2,93,515395,471075,15,9,0,
2,94,515395,471075,15,9,0,
3,1,628491,1636,25,5,0,
3,2,632692,5837,45,6,0,
3,3,637794,10939,85,3,0,
3,4,642296,15441,55,4,1,1422
3,5,646898,20043,45,4,1,1359
3,6,657302,30447,95,7,1,3126
3,7,662504,35649,25,2,1,1009
3,8,667006,40151,35,9,0,
3,9,671908,45053,15,2,1,809
3,10,676610,49755,65,4,1,1087
3,11,680311,53456,75,3,0,
3,12,686097,59242,85,1,0,
3,13,690682,63827,95,1,0,
3,14,694183,67328,35,6,1,869
3,15,699085,72230,35,9,1,1058
3,16,708589,81734,15,4,1,1091
3,17,714392,87537,55,8,0,
3,18,719894,93039,15,4,1,902
3,19,728898,102043,55,2,1,877
3,20,733099,106244,75,2,1,1025
3,21,738401,111546,55,5,0,
3,22,743904,117049,75,1,0,
3,23,747505,120650,65,2,1,882
3,24,752507,125652,45,9,0,
3,25,757409,130554,5,8,1,954
3,26,762811,135956,5,5,1,631
3,27,767914,141059,95,4,0,
3,28,772715,145860,65,7,0,
3,29,775916,149061,5,2,1,704
3,30,780718,153863,25,9,0,
3,31,786121,159266,55,3,0,
3,32,791122,164267,75,5,1,749
3,33,796624,169769,85,9,0,
3,34,800709,173854,15,1,1,670
3,35,805812,178957,15,6,0,
3,36,811214,184359,55,9,0,
3,37,815915,189060,25,7,1,876
3,38,819117,192262,45,5,1,874
3,39,825520,198665,95,5,1,805
3,40,830221,203366,35,3,0,
3,41,834723,207868,95,3,0,
3,42,839208,212353,85,8,0,
3,43,843593,216738,75,4,1,890
3,44,847895,221040,35,4,1,795
3,45,852897,226042,45,1,1,708
3,46,858900,232045,55,1,1,1045
3,47,863101,236246,15,5,0,
3,48,867103,240248,65,5,1,659
3,49,873606,246751,35,2,1,1318
3,50,878207,251352,5,4,0,
3,51,881809,254954,25,8,0,
3,52,886411,259556,5,3,0,
3,53,892914,266059,5,1,0,
3,54,896615,269760,85,4,1,579
3,55,902217,275362,25,3,0,
3,56,905318,278463,95,8,0,
3,57,910321,283466,55,7,1,3804
3,58,921225,294370,65,3,0,
3,59,924926,298071,45,2,1,956
3,60,929528,302673,15,9,0,
3,61,935914,309059,5,7,1,892
3,62,939915,313060,15,8,1,1061
3,63,944818,317963,15,7,0,
3,64,950520,323665,55,4,1,570
3,65,955022,328167,85,2,0,
3,66,959324,332469,65,6,0,
3,67,963124,336269,5,3,0,
3,68,968010,341155,5,1,1,543
3,69,972612,345757,45,8,0,
3,70,978798,351943,75,7,0,
3,71,984100,357245,85,6,1,849
3,72,987601,360746,85,7,0,
3,73,992403,365548,85,5,0,
3,74,997406,370551,5,6,0,
3,75,1001507,374652,45,7,0,
3,76,1007009,380154,35,7,0,
3,77,1012412,385557,35,8,1,652
3,78,1016914,390059,45,3,0,
3,79,1020815,393960,95,6,0,
3,80,1026617,399762,55,5,1,606
3,81,1031919,405064,45,1,1,1136
3,82,1036221,409366,5,2,1,740
3,83,1040823,413968,25,1,1,844
3,84,1044624,417769,55,8,0,
3,85,1050111,423256,45,2,1,1075
3,86,1059013,432158,35,1,1,1043
3,87,1065016,438161,15,2,1,853
3,88,1068817,441962,95,9,0,
3,89,1074419,447564,65,8,0,
3,90,1078804,451949,25,4,0,
3,91,1084807,457952,25,6,0,
3,92,1089309,462454,65,4,1,647
3,93,1094311,467456,65,9,0,
3,94,1098596,471741,75,6,0,
3,95,1098596,471741,75,6,0,
4,1,1216543,1730,55,2,1,848
4,2,1219945,5132,5,4,0,
4,3,1226047,11234,45,9,1,546
4,4,1229548,14735,95,1,0,
4,5,1235834,21021,85,4,1,820
4,6,1240436,25623,95,5,1,1105
4,7,1244738,29925,65,1,0,
4,8,1249039,34226,5,7,1,855
4,9,1254541,39728,25,1,0,
4,10,1258744,43931,55,3,0,
4,11,1264045,49232,15,3,0,
4,12,1268347,53534,35,5,1,730
4,13,1278051,63238,95,2,0,
4,14,1283637,68824,95,9,0,
4,15,1288139,73326,5,8,1,3445
4,16,1292840,78027,65,9,0,
4,17,1298226,83413,75,3,0,
4,18,1306212,91399,15,7,1,591
4,19,1315916,101103,5,9,0,
4,20,1320619,105806,85,2,0,
4,21,1330722,115909,85,9,1,4062
4,22,1336725,121912,55,6,1,657
4,23,1341027,126214,75,9,0,
4,24,1344528,129715,65,4,1,684
4,25,1350731,135918,25,4,1,525
4,26,1354432,139619,35,3,0,
4,27,1359217,144404,85,7,0,
4,28,1364203,149390,55,9,0,
4,29,1368504,153691,5,5,1,574
4,30,1374107,159294,75,8,0,
4,31,1379409,164596,25,7,1,537
4,32,1384611,169798,45,8,1,851
4,33,1389613,174800,15,2,1,611
4,34,1397516,182703,85,3,0,
4,35,1402118,187305,25,3,1,518
4,36,1407120,192307,55,1,1,940
4,37,1413422,198609,45,6,0,
4,38,1416923,202110,45,5,1,685
4,39,1422926,208113,65,7,0,
4,40,1426427,211614,35,7,1,769
4,41,1432230,217417,15,8,1,754
4,42,1436932,222119,75,8,1,501
4,43,1441934,227121,75,9,0,
4,44,1446536,231723,15,6,0,
4,45,1450637,235824,15,1,1,571
4,46,1455539,240726,55,8,0,
4,47,1461225,246412,95,7,0,
4,48,1465426,250613,35,8,1,582
4,49,1469228,254415,65,8,0,
4,50,1478998,264185,5,7,1,516
4,51,1483600,268787,5,9,0,
4,52,1489803,274990,65,1,1,579
4,53,1493804,278991,55,5,1,609
4,54,1499407,284594,85,8,0,
4,55,1503809,288996,25,6,1,917
4,56,1508811,293998,45,4,1,837
4,57,1513613,298800,55,4,1,750
4,58,1518315,303502,55,9,0,
4,59,1522216,307403,85,6,1,649
4,60,1528319,313506,45,4,1,3265
4,61,1532120,317307,5,6,0,
4,62,1537823,323010,5,1,1,723
4,63,1541924,327111,25,9,0,
4,64,1546509,331696,35,5,0,
4,65,1552595,337782,55,7,0,
4,66,1556897,342084,75,6,1,669
4,67,1561998,347185,65,3,0,
4,68,1565284,350471,35,6,1,667
4,69,1571486,356673,5,3,0,
4,70,1574788,359975,45,8,1,1852
4,71,1581390,366577,15,3,0,
4,72,1585291,370478,65,6,1,1472
4,73,1591093,376280,95,8,0,
4,74,1594395,379582,85,1,1,941
4,75,1599697,384884,75,5,1,858
4,76,1605099,390286,15,5,1,738
4,77,1609801,394988,25,8,0,
4,78,1614403,399590,25,2,1,534
4,79,1618205,403392,25,5,1,953
4,80,1624507,409694,85,5,1,1192
4,81,1628809,413996,95,4,1,1259
4,82,1633811,418998,65,2,0,
4,83,1638997,424184,55,3,0,
4,84,1643598,428785,5,4,0,
4,85,1648784,433971,35,1,0,
4,86,1651785,436972,75,2,1,717
4,87,1658187,443374,65,5,1,550
4,88,1661889,447076,35,2,0,
4,89,1667791,452978,15,4,1,629
4,90,1671693,456880,25,5,0,
4,91,1677495,462682,65,2,0,
4,92,1681597,466784,5,5,0,
4,93,1685198,470385,85,5,1,570
4,94,1685198,470385,85,5,0,
5,1,1786206,1137,45,9,0,
5,2,1790507,5438,75,1,0,
5,3,1796410,11341,65,8,0,
5,4,1801211,16142,25,3,0,
5,5,1804413,19344,35,9,1,1048
5,6,1815917,30848,45,7,0,
5,7,1820203,35134,15,9,1,918
5,8,1823904,38835,85,1,0,
5,9,1828505,43436,75,7,0,
5,10,1834008,48939,75,3,0,
5,11,1839710,54641,55,6,1,909
5,12,1843312,58243,5,2,1,1732
5,13,1849314,64245,5,8,1,514
5,14,1853015,67946,65,9,0,
5,15,1858718,73649,55,2,1,579
5,16,1862219,77150,45,5,1,528
5,17,1868122,83053,65,5,1,3323
5,18,1873024,87955,65,7,0,
5,19,1877025,91956,25,7,0,
5,20,1882927,97858,5,7,1,543
5,21,1886729,101660,15,7,0,
5,22,1890931,105862,45,6,1,720
5,23,1900935,115866,65,3,0,
5,24,1907137,122068,85,8,0,
5,25,1911823,126754,35,4,1,817
5,26,1916024,130955,15,2,1,765
5,27,1921226,136157,65,1,0,
5,28,1925412,140343,85,2,0,
5,29,1929113,144044,85,4,1,547
5,30,1934315,149246,55,7,0,
5,31,1940517,155448,55,9,0,
5,32,1945120,160051,15,5,1,765
5,33,1948621,163552,45,2,1,850
5,34,1954723,169654,25,9,0,
5,35,1958525,173456,85,7,0,
5,36,1963727,178658,85,6,1,600
5,37,1969429,184360,95,3,0,
5,38,1973331,188262,75,4,1,629
5,39,1977432,192363,15,6,0,
5,40,1982618,197549,15,8,1,539
5,41,1987520,202451,85,3,0,
5,42,1991622,206553,35,6,0,
5,43,1996824,211755,5,3,1,682
5,44,2001325,216256,35,7,0,
5,45,2007427,222358,75,5,1,595
5,46,2010929,225860,5,9,0,
5,47,2015631,230562,65,6,1,553
5,48,2020733,235664,95,6,1,565
5,49,2026935,241866,85,9,0,
5,50,2029937,244868,65,4,1,494
5,51,2035639,250570,15,3,0,
5,52,2040924,255855,5,1,1,949
5,53,2049610,264541,75,4,1,726
5,54,2054513,269444,75,3,0,
5,55,2058797,273728,55,5,1,675
5,56,2064900,279831,5,2,1,596
5,57,2068601,283532,95,4,0,
5,58,2073688,288619,25,4,1,578
5,59,2077889,292820,95,3,0,
5,60,2082674,297605,95,2,0,
5,61,2092562,307493,85,3,1,4481
5,62,2097463,312394,95,8,0,
5,63,2102766,317697,25,1,1,546
5,64,2106868,321799,35,8,0,
5,65,2111570,326501,45,1,1,719
5,66,2123074,338005,45,3,0,
5,67,2127576,342507,5,5,1,689
5,68,2135879,350810,25,2,1,554
5,69,2141881,356812,85,6,1,650
5,70,2146683,361614,45,8,0,
5,71,2151585,366516,35,9,1,1787
5,72,2155387,370318,25,6,1,1021
5,73,2160489,375420,45,5,1,597
5,74,2166091,381022,5,8,0,
5,75,2169493,384424,55,1,0,
5,76,2175295,390226,95,1,0,
5,77,2179497,394428,15,9,0,
5,78,2184882,399813,25,8,1,839
5,79,2188984,403915,75,8,0,
5,80,2194186,409117,55,3,0,
5,81,2199671,414602,5,6,1,1052
5,82,2202973,417904,15,4,0,
5,83,2208975,423906,5,4,1,1004
5,84,2213177,428108,95,5,0,
5,85,2218262,433193,45,1,0,
5,86,2223448,438379,25,6,1,637
5,87,2233135,448066,65,8,0,
5,88,2236636,451567,65,4,0,
5,89,2242322,457253,75,6,1,1182
5,90,2247624,462555,65,2,0,
5,91,2251925,466856,25,1,1,586
5,92,2257328,472259,95,6,0,
5,93,2257328,472259,95,6,0,
6,1,2257328,-121430,95,6,0,
7,1,2257328,2198707,95,6,0,
8,1,2257328,1836643,95,6,0,
