run,trial,global time,run time,morph level,couple,response,response time
1,1,702932,1240,25,4,0,
1,2,706534,4842,85,3,1,619
1,3,713036,11344,65,3,1,555
1,4,716138,14446,25,6,1,606
1,5,721439,19747,15,4,1,512
1,6,726441,24749,75,4,1,1628
1,7,730844,29152,25,5,0,
1,8,736846,35154,45,9,0,
1,9,741048,39356,35,5,0,
1,10,746149,44457,15,6,0,
1,11,751351,49659,55,4,0,
1,12,756353,54661,95,5,1,585
1,13,760956,59264,55,2,0,
1,14,764257,62565,65,1,0,
1,15,770260,68568,35,6,0,
1,16,779847,78155,45,7,0,
1,17,784949,83257,85,8,1,636
1,18,790051,88359,55,3,1,531
1,19,794152,92460,75,8,1,588
1,20,799055,97363,85,1,1,482
1,21,802756,101064,35,7,0,
1,22,818445,116753,25,8,0,
1,23,826648,124956,15,8,0,
1,24,831551,129859,5,1,0,
1,25,837153,135461,35,1,0,
1,26,841154,139462,95,1,1,510
1,27,847257,145565,75,7,1,663
1,28,852259,150567,35,8,0,
1,29,855761,154069,45,4,0,
1,30,861562,159870,95,3,1,827
1,31,866565,164873,5,3,0,
1,32,870366,168674,45,8,0,
1,33,875952,174260,95,6,1,646
1,34,880754,179062,45,6,1,817
1,35,885056,183364,45,2,0,
1,36,889357,187665,25,2,0,
1,37,894943,193251,15,3,0,
1,38,899245,197553,55,5,0,
1,39,904646,202954,65,6,1,652
1,40,909549,207857,75,2,1,542
1,41,918053,216361,25,7,0,
1,42,922654,220962,75,3,1,537
1,43,928957,227265,85,5,1,498
1,44,937360,235668,75,5,1,492
1,45,947965,246273,65,4,0,
1,46,951666,249974,55,6,0,
1,47,957068,255376,65,7,1,484
1,48,961570,259878,95,7,1,508
1,49,967272,265580,65,9,1,693
1,50,976475,274783,85,2,1,708
1,51,982078,280386,65,5,1,685
1,52,986863,285171,5,2,0,
1,53,990948,289256,35,2,0,
1,54,995350,293658,5,8,0,
1,55,999752,298060,35,4,0,
1,56,1005254,303562,85,6,1,485
1,57,1009756,308064,75,1,1,475
1,58,1015458,313766,85,9,1,467
1,59,1019059,317367,15,7,0,
1,60,1023845,322153,85,4,1,609
1,61,1029547,327855,65,8,1,929
1,62,1033049,331357,85,7,1,482
1,63,1039551,337859,15,9,0,
1,64,1043152,341460,25,1,0,
1,65,1048555,346863,45,3,0,
1,66,1052757,351065,75,6,1,652
1,67,1057858,356166,35,9,0,
1,68,1062060,360368,55,9,1,610
1,69,1067062,365370,15,5,0,
1,70,1072248,370556,95,8,1,683
1,71,1077849,376157,75,9,1,893
1,72,1081151,379459,25,9,0,
1,73,1087153,385461,45,5,0,
1,74,1091556,389864,5,4,0,
1,75,1096557,394865,35,3,0,
1,76,1100259,398567,25,3,0,
1,77,1106545,404853,95,4,1,638
1,78,1110847,409155,65,2,1,672
1,79,1116449,414757,5,7,0,
1,80,1119950,418258,5,6,0,
1,81,1125636,423944,55,8,1,670
1,82,1129338,427646,55,7,0,
1,83,1135140,433448,55,1,0,
1,84,1144943,443251,45,1,0,
1,85,1148645,446953,15,1,1,4225
1,86,1154048,452356,5,5,0,
1,87,1158149,456457,5,9,0,
1,88,1164434,462742,95,9,1,522
1,89,1169137,467445,95,2,1,965
1,90,1173038,471346,15,2,0,
1,91,1173038,471346,15,2,0,
2,1,1274930,531,75,4,1,612
2,2,1280531,6132,5,6,1,3444
2,3,1285533,11134,45,4,0,
2,4,1290535,16136,15,5,0,
2,5,1294037,19638,55,9,1,577
2,6,1300340,25941,15,9,0,
2,7,1304241,29842,95,1,1,549
2,8,1313445,39046,25,7,0,
2,9,1317847,43448,85,7,1,930
2,10,1323232,48833,55,3,1,477
2,11,1328434,54035,85,1,1,919
2,12,1333236,58837,45,6,1,689
2,13,1337038,62639,65,4,1,588
2,14,1342240,67841,65,3,1,475
2,15,1352844,78445,75,6,1,489
2,16,1357946,83547,25,3,0,
2,17,1362248,87849,25,1,0,
2,18,1365849,91450,15,6,0,
2,19,1372135,97736,35,1,0,
2,20,1376436,102037,5,9,0,
2,21,1380438,106039,55,1,0,
2,22,1385940,111541,65,7,1,548
2,23,1391043,116644,95,6,1,530
2,24,1405549,131150,65,1,1,634
2,25,1409250,134851,75,5,1,603
2,26,1415253,140854,35,8,0,
2,27,1418554,144155,15,1,0,
2,28,1424439,150040,25,6,0,
2,29,1428824,154425,65,2,1,653
2,30,1433226,158827,55,6,1,489
2,31,1439629,165230,95,8,1,469
2,32,1448133,173734,5,1,0,
2,33,1452934,178535,15,3,0,
2,34,1458220,183821,65,8,1,544
2,35,1461821,187422,95,3,1,645
2,36,1466523,192124,35,4,0,
2,37,1471808,197409,45,7,0,
2,38,1476193,201794,45,9,0,
2,39,1480796,206397,55,8,1,622
2,40,1487398,212999,55,2,0,
2,41,1491000,216601,5,7,0,
2,42,1496002,221603,85,8,1,947
2,43,1501487,227088,45,5,0,
2,44,1506189,231790,5,8,0,
2,45,1509990,235591,35,6,0,
2,46,1515493,241094,75,7,1,522
2,47,1520895,246496,95,9,1,611
2,48,1524896,250497,75,8,1,872
2,49,1530382,255983,75,9,1,467
2,50,1540386,265987,65,9,1,553
2,51,1543588,269189,25,2,0,
2,52,1548989,274590,45,3,1,706
2,53,1554492,280093,85,9,1,535
2,54,1558293,283894,85,4,1,581
2,55,1569098,294699,5,5,0,
2,56,1576984,302585,35,9,1,2192
2,57,1586688,312289,95,4,1,496
2,58,1592091,317692,55,4,0,
2,59,1597492,323093,75,2,1,543
2,60,1601894,327495,25,4,0,
2,61,1606196,331797,55,7,0,
2,62,1611181,336782,95,7,1,475
2,63,1615883,341484,35,3,0,
2,64,1620785,346386,35,7,0,
2,65,1624887,350488,75,1,1,770
2,66,1630389,355990,45,8,0,
2,67,1640476,366077,55,5,0,
2,68,1644578,370179,5,2,0,
2,69,1650063,375664,35,5,0,
2,70,1659668,385269,65,6,1,522
2,71,1664470,390071,85,3,1,948
2,72,1669271,394872,15,4,0,
2,73,1673273,398874,5,3,0,
2,74,1678858,404459,65,5,1,506
2,75,1684060,409661,85,2,1,579
2,76,1687145,412746,45,1,0,
2,77,1692848,418449,75,3,1,574
2,78,1697049,422650,15,2,0,
2,79,1702451,428052,5,4,0,
2,80,1712839,438440,95,5,1,489
2,81,1717640,443241,75,3,1,910
2,82,1721626,447227,55,4,0,
2,83,1727311,452912,35,2,0,
2,84,1730913,456514,45,2,0,
2,85,1737098,462699,15,8,0,
2,86,1740099,465700,25,9,0,
2,87,1746386,471987,25,8,0,
2,88,1746386,471987,25,8,0,
3,1,1851178,421,25,5,0,
3,2,1862349,11592,75,6,1,489
3,3,1866350,15593,5,6,0,
3,4,1870435,19678,65,8,1,529
3,5,1875937,25180,35,6,1,1196
3,6,1880340,29583,85,6,1,477
3,7,1890244,39487,45,9,0,
3,8,1894445,43688,35,9,0,
3,9,1900248,49491,65,4,0,
3,10,1904249,53492,55,1,0,
3,11,1910151,59394,25,8,0,
3,12,1923857,73100,55,5,0,
3,13,1929559,78802,75,5,1,489
3,14,1933561,82804,15,7,0,
3,15,1938363,87606,45,3,0,
3,16,1943765,93008,85,5,1,641
3,17,1947566,96809,5,9,0,
3,18,1952969,102212,55,2,0,
3,19,1956471,105714,35,5,0,
3,20,1963073,112316,45,2,0,
3,21,1966774,116017,15,6,1,3960
3,22,1972476,121719,95,2,1,616
3,23,1976578,125821,15,2,0,
3,24,1981080,130323,15,1,0,
3,25,1986182,135425,85,8,1,934
3,26,1990567,139810,75,4,1,472
3,27,1995769,145012,5,7,0,
3,28,2000755,149998,85,6,1,468
3,29,2005957,155200,25,5,0,
3,30,2009959,159202,45,6,1,850
3,31,2014761,164004,25,9,0,
3,32,2020062,169305,45,8,1,561
3,33,2025465,174708,65,5,1,528
3,34,2028366,177609,75,7,1,501
3,35,2034568,183811,55,8,1,486
3,36,2039070,188313,95,5,1,936
3,37,2043072,192315,5,1,0,
3,38,2047874,197117,55,9,1,477
3,39,2053176,202419,85,2,1,478
3,40,2057678,206921,35,1,0,
3,41,2062079,211322,15,7,0,
3,42,2068364,217607,75,1,1,3169
3,43,2072167,221410,5,2,0,
3,44,2076969,226212,35,4,0,
3,45,2081770,231013,25,7,0,
3,46,2087072,236315,85,9,1,484
3,47,2092175,241418,55,3,0,
3,48,2102062,251305,95,8,1,485
3,49,2105864,255107,65,3,1,519
3,50,2110065,259308,85,7,1,485
3,51,2120970,270213,25,3,0,
3,52,2125672,274915,65,7,1,622
3,53,2130574,279817,45,1,0,
3,54,2134575,283818,45,5,0,
3,55,2140378,289621,35,3,1,513
3,56,2144779,294022,95,9,1,594
3,57,2148681,297924,95,2,1,538
3,58,2153983,303226,5,3,0,
3,59,2159185,308428,25,2,0,
3,60,2164471,313714,5,4,0,
3,61,2167972,317215,45,7,1,965
3,62,2172874,322117,65,2,1,491
3,63,2178276,327519,95,1,1,953
3,64,2182778,332021,75,2,1,940
3,65,2187680,336923,75,9,1,919
3,66,2192181,341424,15,3,0,
3,67,2196467,345710,35,2,0,
3,68,2201569,350812,25,1,0,
3,69,2207255,356498,65,9,1,476
3,70,2211156,360399,95,7,1,510
3,71,2216858,366101,65,6,1,515
3,72,2226963,376206,45,4,0,
3,73,2231164,380407,5,5,0,
3,74,2235149,384392,55,7,1,508
3,75,2239951,389194,15,4,0,
3,76,2245953,395196,85,1,1,559
3,77,2250655,399898,55,6,1,543
3,78,2254657,403900,75,8,1,474
3,79,2260260,409503,5,8,1,1673
3,80,2269163,418406,15,9,0,
3,81,2273465,422708,45,4,0,
3,82,2279467,428710,75,2,1,487
3,83,2283268,432511,95,3,1,911
3,84,2287653,436896,55,8,1,518
3,85,2292855,442098,5,7,0,
3,86,2298641,447884,35,7,0,
3,87,2302642,451885,25,4,0,
3,88,2307245,456488,95,4,1,518
3,89,2316648,465891,15,8,0,
3,90,2322134,471377,35,8,1,564
3,91,2322134,471377,35,8,0,
4,1,2423925,1930,65,1,1,568
4,2,2428827,6832,35,7,0,
4,3,2432228,10233,5,3,0,
4,4,2437214,15219,15,5,0,
4,5,2443016,21021,45,9,1,567
4,6,2446218,24223,15,1,0,
4,7,2452403,30408,65,5,1,584
4,8,2455805,33810,65,8,1,659
4,9,2461607,39612,55,4,0,
4,10,2466009,44014,95,6,1,934
4,11,2470810,48815,85,3,1,566
4,12,2480314,58319,5,4,0,
4,13,2484717,62722,55,6,1,566
4,14,2491219,69224,15,7,0,
4,15,2494320,72325,35,8,1,617
4,16,2499022,77027,55,5,0,
4,17,2504807,82812,95,6,1,941
4,18,2514595,92600,45,8,1,579
4,19,2519497,97502,55,7,1,915
4,20,2522898,100903,15,4,0,
4,21,2527683,105688,5,9,0,
4,22,2534170,112175,65,9,1,598
4,23,2542573,120578,5,1,0,
4,24,2547858,125863,25,6,0,
4,25,2552060,130065,25,3,0,
4,26,2556846,134851,95,4,1,563
4,27,2561647,139652,55,3,1,487
4,28,2566349,144354,75,9,1,474
4,29,2570850,148855,85,4,1,570
4,30,2577153,155158,45,6,1,532
4,31,2581655,159660,15,9,0,
4,32,2586440,164445,25,9,0,
4,33,2591025,169030,5,8,1,643
4,34,2599529,177534,95,8,1,938
4,35,2605415,183420,65,6,1,939
4,36,2610400,188405,35,6,1,881
4,37,2614202,192207,35,9,1,4569
4,38,2619404,197409,45,7,0,
4,39,2623605,201610,75,5,1,514
4,40,2630208,208213,95,1,1,513
4,41,2633710,211715,25,7,0,
4,42,2638012,216017,35,4,0,
4,43,2643214,221219,15,8,0,
4,44,2649216,227221,35,5,0,
4,45,2653317,231322,25,1,0,
4,46,2658903,236908,15,5,0,
4,47,2662104,240109,75,7,1,469
4,48,2667606,245611,55,1,1,540
4,49,2672709,250714,65,4,1,615
4,50,2677911,255916,5,6,0,
4,51,2682812,260817,45,1,0,
4,52,2686515,264520,45,5,0,
4,53,2691816,269821,85,5,1,472
4,54,2697419,275424,85,4,1,605
4,55,2701020,279025,65,3,1,923
4,56,2706806,284811,35,2,1,569
4,57,2710507,288512,75,8,1,542
4,58,2716109,294114,75,6,1,676
4,59,2720011,298016,15,3,1,867
4,60,2725913,303918,55,2,1,511
4,61,2730915,308920,85,7,1,960
4,62,2735017,313022,25,5,0,
4,63,2739018,317023,55,9,1,469
4,64,2744020,322025,35,3,0,
4,65,2749106,327111,5,2,0,
4,66,2754708,332713,5,5,0,
4,67,2763812,341817,15,6,0,
4,68,2768313,346318,45,2,0,
4,69,2773515,351520,95,7,1,487
4,70,2777817,355822,95,9,1,1753
4,71,2783620,361625,95,3,1,588
4,72,2788622,366627,55,9,1,883
4,73,2792624,370629,95,5,1,1349
4,74,2797626,375631,5,1,0,
4,75,2801727,379732,25,4,0,
4,76,2817334,395339,85,6,1,516
4,77,2821935,399940,35,1,0,
4,78,2825737,403742,5,5,0,
4,79,2830939,408944,95,2,1,577
4,80,2835440,413445,65,7,1,488
4,81,2840543,418548,95,5,1,525
4,82,2844444,422449,85,3,1,500
4,83,2850947,428952,35,9,0,
4,84,2854348,432353,45,3,1,801
4,85,2859251,437256,5,7,0,
4,86,2869354,447359,5,2,0,
4,87,2874740,452745,25,6,0,
4,88,2878542,456547,25,8,0,
4,89,2884044,462049,45,8,0,
4,90,2887645,465650,75,4,1,497
4,91,2893647,471652,85,9,1,959
4,92,2893647,471652,85,9,0,
5,1,2893647,-110387,85,9,0,
