run,trial,global time,run time,morph level,couple,response,response time
1,1,661210,1080,35,5,0,
1,2,666512,6382,25,7,0,
1,3,671814,11684,75,2,0,
1,4,675816,15686,85,4,0,
1,5,680017,19887,95,2,0,
1,6,685302,25172,5,4,0,
1,7,690888,30758,5,3,0,
1,8,699975,39845,75,3,0,
1,9,704477,44347,95,8,1,944
1,10,708879,48749,55,5,0,
1,11,713881,53751,15,5,0,
1,12,718283,58153,45,2,0,
1,13,723085,62955,5,2,0,
1,14,728187,68057,25,2,0,
1,15,733689,73559,25,3,0,
1,16,738591,78461,35,4,0,
1,17,742293,82163,95,3,0,
1,18,747394,87264,15,6,0,
1,19,752280,92150,25,4,0,
1,20,756882,96752,35,3,0,
1,21,762784,102654,95,1,0,
1,22,765985,105855,55,8,1,677
1,23,771088,110958,85,9,1,2274
1,24,775889,115759,85,5,0,
1,25,780691,120561,55,9,0,
1,26,786577,126447,45,1,0,
1,27,790879,130749,45,4,1,3624
1,28,795881,135751,55,6,0,
1,29,801283,141153,65,6,0,
1,30,805785,145655,45,3,0,
1,31,809686,149556,75,7,1,646
1,32,815589,155459,35,8,0,
1,33,819791,159661,25,1,0,
1,34,825092,164962,45,9,0,
1,35,828994,168864,5,1,0,
1,36,834096,173966,75,9,0,
1,37,838998,178868,95,7,1,745
1,38,847702,187572,95,5,0,
1,39,853504,193374,45,7,0,
1,40,857305,197175,35,6,0,
1,41,862991,202861,45,6,0,
1,42,867392,207262,65,7,1,670
1,43,872795,212665,95,6,0,
1,44,877197,217067,15,3,0,
1,45,881699,221569,5,8,0,
1,46,886001,225871,5,5,0,
1,47,891703,231573,25,6,0,
1,48,896604,236474,25,8,0,
1,49,901007,240877,15,9,0,
1,50,911810,251680,55,2,0,
1,51,915212,255082,85,1,0,
1,52,920614,260484,75,4,0,
1,53,924899,264769,75,6,0,
1,54,929300,269170,45,8,0,
1,55,935186,275056,15,7,0,
1,56,939089,278959,35,1,0,
1,57,943890,283760,5,6,0,
1,58,948275,288145,55,7,1,654
1,59,954177,294047,55,3,0,
1,60,958262,298132,85,8,1,1022
1,61,963665,303535,25,5,0,
1,62,969067,308937,15,1,0,
1,63,972968,312838,5,9,0,
1,64,978771,318641,5,7,0,
1,65,987774,327644,75,5,0,
1,66,998162,338032,25,9,0,
1,67,1002864,342734,55,1,0,
1,68,1007566,347436,65,3,0,
1,69,1011367,351237,75,8,1,735
1,70,1021872,361742,65,9,1,1174
1,71,1025973,365843,65,8,1,1228
1,72,1031075,370945,45,5,0,
1,73,1036176,376046,95,9,1,682
1,74,1039678,379548,95,4,0,
1,75,1045665,385535,15,4,1,837
1,76,1059469,399339,25,5,0,
1,77,1064555,404425,55,4,0,
1,78,1068440,408310,75,1,0,
1,79,1074726,414596,95,5,0,
1,80,1079311,419181,5,4,0,
1,81,1084413,424283,95,7,1,694
1,82,1088915,428785,75,8,1,1805
1,83,1092516,432386,65,5,0,
1,84,1097301,437171,25,7,0,
1,85,1102303,442173,5,5,0,
1,86,1107806,447676,65,2,0,
1,87,1112892,452762,65,1,0,
1,88,1116993,456863,35,2,0,
1,89,1121094,460964,35,9,0,
1,90,1126480,466350,15,2,0,
1,91,1131383,471253,85,2,0,
1,92,1131383,471253,85,2,0,
2,1,1245995,637,95,6,0,
2,2,1251980,6622,85,3,0,
2,3,1255782,10424,15,8,0,
2,4,1261568,16210,15,3,0,
2,5,1265170,19812,5,6,0,
2,6,1270571,25213,85,6,1,3559
2,7,1274673,29315,45,6,0,
2,8,1285077,39719,45,8,1,680
2,9,1288678,43320,55,5,0,
2,10,1294581,49223,55,7,1,1397
2,11,1298783,53425,25,2,0,
2,12,1303285,57927,35,7,0,
2,13,1309770,64412,5,3,0,
2,14,1313956,68598,25,6,0,
2,15,1317957,72599,95,1,0,
2,16,1323659,78301,85,7,1,727
2,17,1328861,83503,85,9,1,704
2,18,1332763,87405,85,5,0,
2,19,1336865,91507,15,6,0,
2,20,1342167,96809,45,1,0,
2,21,1346768,101410,35,9,0,
2,22,1352354,106996,95,4,0,
2,23,1356756,111398,75,6,0,
2,24,1362258,116900,55,3,0,
2,25,1366143,120785,5,2,0,
2,26,1371629,126271,5,1,0,
2,27,1375130,129772,35,4,0,
2,28,1379732,134374,75,9,1,630
2,29,1385534,140176,85,3,0,
2,30,1390136,144778,65,4,0,
2,31,1395521,150163,15,1,0,
2,32,1399823,154465,15,5,0,
2,33,1405025,159667,45,3,0,
2,34,1414012,168654,45,9,0,
2,35,1420115,174757,5,7,0,
2,36,1423616,178258,85,7,1,616
2,37,1428018,182660,55,9,0,
2,38,1434320,188962,75,2,0,
2,39,1437622,192264,5,9,0,
2,40,1443424,198066,45,5,0,
2,41,1446925,201567,45,4,0,
2,42,1451711,206353,65,2,0,
2,43,1457513,212155,35,8,0,
2,44,1462598,217240,35,3,0,
2,45,1467183,221825,15,2,0,
2,46,1470885,225527,75,4,0,
2,47,1476687,231329,55,4,0,
2,48,1482490,237132,5,8,0,
2,49,1486891,241533,5,3,0,
2,50,1496079,250721,65,9,1,856
2,51,1500381,255023,95,3,0,
2,52,1505883,260525,75,7,1,709
2,53,1509284,263926,75,3,0,
2,54,1514769,269411,25,1,0,
2,55,1523873,278515,95,8,1,814
2,56,1534177,288819,95,2,0,
2,57,1539380,294022,85,4,0,
2,58,1544281,298923,35,1,0,
2,59,1548483,303125,75,5,0,
2,60,1553085,307727,35,6,0,
2,61,1557386,312028,25,3,0,
2,62,1564090,318732,65,6,0,
2,63,1568391,323033,65,8,1,716
2,64,1572592,327234,55,1,0,
2,65,1581380,336022,65,3,0,
2,66,1587982,342624,95,9,1,725
2,67,1592284,346926,5,7,0,
2,68,1595985,350627,25,4,0,
2,69,1601588,356230,95,7,1,588
2,70,1605489,360131,95,9,1,714
2,71,1610591,365233,25,8,0,
2,72,1615093,369735,65,1,0,
2,73,1621079,375721,25,9,0,
2,74,1625881,380523,35,2,0,
2,75,1629682,384324,85,2,0,
2,76,1639069,393711,55,6,0,
2,77,1645472,400114,55,8,0,
2,78,1649174,403816,35,5,0,
2,79,1653375,408017,45,7,0,
2,80,1658077,412719,15,4,0,
2,81,1669465,424107,75,1,0,
2,82,1674167,428809,5,1,0,
2,83,1677968,432610,65,7,1,826
2,84,1683571,438213,65,5,0,
2,85,1687372,442014,85,8,1,735
2,86,1692374,447016,25,3,0,
2,87,1697276,451918,95,6,0,
2,88,1701478,456120,95,2,0,
2,89,1706263,460905,5,2,0,
2,90,1712649,467291,25,4,0,
2,91,1715750,470392,45,2,0,
2,92,1715750,470392,45,2,0,
3,1,1827962,937,45,4,0,
3,2,1833164,6139,15,9,0,
3,3,1837649,10624,95,8,1,646
3,4,1841751,14726,25,1,0,
3,5,1846352,19327,5,4,0,
3,6,1852339,25314,95,5,0,
3,7,1856340,29315,75,3,0,
3,8,1862342,35317,55,2,0,
3,9,1867144,40119,5,6,0,
3,10,1871630,44605,25,2,0,
3,11,1876231,49206,95,3,0,
3,12,1881617,54592,85,1,0,
3,13,1885118,58093,55,6,0,
3,14,1890820,63795,15,7,0,
3,15,1895322,68297,35,7,0,
3,16,1900424,73399,55,9,0,
3,17,1905610,78585,25,7,0,
3,18,1908711,81686,75,5,0,
3,19,1914613,87588,75,9,1,527
3,20,1919515,92490,35,8,0,
3,21,1923900,96875,25,6,0,
3,22,1933588,106563,35,2,0,
3,23,1939090,112065,85,6,0,
3,24,1948377,121352,5,9,0,
3,25,1952478,125453,5,5,0,
3,26,1957480,130455,35,1,0,
3,27,1962983,135958,25,8,0,
3,28,1968085,141060,75,6,0,
3,29,1972686,145661,55,2,0,
3,30,1977188,150163,25,5,0,
3,31,1981690,154665,25,9,0,
3,32,1985892,158867,65,4,0,
3,33,1990794,163769,45,7,1,4213
3,34,1995095,168070,15,8,0,
3,35,2000981,173956,55,5,0,
3,36,2005466,178441,35,3,0,
3,37,2011352,184327,35,4,0,
3,38,2015937,188912,5,8,0,
3,39,2020840,193815,35,9,0,
3,40,2030243,203218,55,7,1,667
3,41,2033745,206720,75,1,0,
3,42,2039930,212905,95,4,0,
3,43,2043932,216907,45,6,0,
3,44,2048818,221793,25,7,0,
3,45,2054319,227294,55,3,0,
3,46,2058821,231796,85,2,0,
3,47,2072926,245901,95,1,0,
3,48,2077629,250604,75,2,0,
3,49,2083014,255989,15,2,0,
3,50,2087799,260774,5,8,0,
3,51,2092002,264977,85,4,0,
3,52,2097603,270578,85,8,1,707
3,53,2100605,273580,95,7,1,970
3,54,2105507,278482,55,8,0,
3,55,2112092,285067,15,1,0,
3,56,2120479,293454,35,5,0,
3,57,2126265,299240,65,1,0,
3,58,2129366,302341,15,8,0,
3,59,2135268,308243,45,8,0,
3,60,2139770,312745,25,9,0,
3,61,2145556,318531,35,6,0,
3,62,2150441,323416,85,6,0,
3,63,2154227,327202,85,5,0,
3,64,2158311,331286,65,8,0,
3,65,2164313,337288,5,4,0,
3,66,2168115,341090,75,8,1,590
3,67,2172716,345691,15,3,0,
3,68,2179203,352178,5,6,0,
3,69,2187006,359981,95,6,1,502
3,70,2202612,375587,45,2,0,
3,71,2206114,379089,75,7,1,646
3,72,2212616,385591,85,1,0,
3,73,2216918,389893,35,7,0,
3,74,2221120,394095,85,3,0,
3,75,2226105,399080,45,3,0,
3,76,2230190,403165,45,9,0,
3,77,2239977,412952,65,3,0,
3,78,2245363,418338,55,1,0,
3,79,2255466,428441,5,1,0,
3,80,2259968,432943,65,4,0,
3,81,2264553,437528,65,7,1,1154
3,82,2269555,442530,25,6,0,
3,83,2273557,446532,15,4,0,
3,84,2279943,452918,45,5,0,
3,85,2284345,457320,55,4,0,
3,86,2289147,462122,5,9,0,
3,87,2294049,467024,15,7,0,
3,88,2298550,471525,75,4,0,
3,89,2298550,471525,75,4,0,
4,1,2409395,1237,95,4,0,
4,2,2414581,6423,65,2,0,
4,3,2419682,11524,55,9,0,
4,4,2423785,15627,45,1,0,
4,5,2427586,19428,65,6,1,2156
4,6,2437590,29432,55,1,0,
4,7,2443692,35534,35,9,0,
4,8,2447093,38935,25,2,0,
4,9,2451895,43737,45,2,0,
4,10,2457598,49440,95,8,1,632
4,11,2461500,53342,65,5,0,
4,12,2467185,59027,95,9,1,655
4,13,2471187,63029,15,9,0,
4,14,2475972,67814,15,5,0,
4,15,2481458,73300,35,8,0,
4,16,2485759,77601,55,8,0,
4,17,2490045,81887,55,4,0,
4,18,2496047,87889,15,6,0,
4,19,2499748,91590,45,8,0,
4,20,2513954,105796,85,7,1,760
4,21,2519056,110898,45,5,0,
4,22,2524141,115983,5,2,0,
4,23,2529028,120870,25,8,0,
4,24,2533428,125270,15,5,0,
4,25,2538114,129956,65,9,0,
4,26,2544399,136241,95,1,0,
4,27,2548101,139943,5,7,1,1640
4,28,2552203,144045,5,5,0,
4,29,2557005,148847,25,1,0,
4,30,2566909,158751,85,9,1,775
4,31,2572111,163953,75,2,0,
4,32,2576413,168255,25,3,0,
4,33,2581314,173156,15,2,0,
4,34,2587001,178843,85,6,0,
4,35,2590502,182344,35,6,0,
4,36,2595803,187645,35,5,0,
4,37,2600805,192647,75,4,0,
4,38,2606191,198033,5,3,0,
4,39,2616379,208221,25,4,0,
4,40,2621080,212922,35,1,0,
4,41,2624382,216224,25,5,0,
4,42,2634185,226027,45,4,0,
4,43,2639672,231514,15,8,0,
4,44,2644973,236815,75,3,0,
4,45,2649959,241801,85,9,1,717
4,46,2654560,246402,35,4,0,
4,47,2657645,249487,5,1,0,
4,48,2663948,255790,45,1,0,
4,49,2673752,265594,95,3,0,
4,50,2677552,269394,85,8,1,611
4,51,2681854,273696,5,6,0,
4,52,2686556,278398,95,5,0,
4,53,2696644,288486,75,5,0,
4,54,2701746,293588,15,3,0,
4,55,2707049,298891,35,2,0,
4,56,2712350,304192,5,5,0,
4,57,2716051,307893,5,4,0,
4,58,2721637,313479,5,8,0,
4,59,2726722,318564,45,6,0,
4,60,2730424,322266,75,8,1,622
4,61,2735026,326868,75,6,0,
4,62,2740328,332170,65,1,0,
4,63,2744630,336472,45,3,0,
4,64,2749832,341674,75,9,1,984
4,65,2754633,346475,95,2,0,
4,66,2758635,350477,85,2,0,
4,67,2763921,355763,75,7,0,
4,68,2769424,361266,25,5,0,
4,69,2773924,365766,95,4,0,
4,70,2777726,369568,55,6,0,
4,71,2782412,374254,5,3,0,
4,72,2787814,379656,45,7,0,
4,73,2793116,384958,45,9,0,
4,74,2798218,390060,15,4,1,3524
4,75,2803220,395062,55,2,0,
4,76,2811624,403466,25,7,0,
4,77,2817326,409168,25,3,0,
4,78,2821027,412869,75,1,0,
4,79,2826512,418354,75,1,1,1630
4,80,2831314,423156,85,3,0,
4,81,2836900,428742,25,4,0,
4,82,2840801,432643,45,8,0,
4,83,2844903,436745,95,7,1,593
4,84,2850706,442548,55,5,0,
4,85,2856192,448034,65,9,0,
4,86,2859592,451434,55,3,0,
4,87,2865478,457320,85,1,0,
4,88,2869580,461422,35,3,0,
4,89,2875265,467107,15,9,0,
4,90,2879150,470992,5,9,0,
4,91,2879150,470992,5,9,0,
5,1,2879150,-119237,5,9,0,
