run,trial,global time,run time,morph level,couple,response,response time
1,1,2023579,926,15,6,0,
1,2,2029498,6845,95,4,0,
1,3,2034416,11763,75,1,0,
1,4,2037834,15181,5,6,0,
1,5,2042253,19600,45,2,0,
1,6,2047472,24819,55,8,0,
1,7,2051889,29236,25,3,0,
1,8,2057309,34656,35,4,0,
1,9,2063027,40374,85,6,0,
1,10,2067447,44794,55,1,0,
1,11,2072565,49912,75,4,0,
1,12,2077067,54414,65,9,0,
1,13,2081286,58633,45,8,0,
1,14,2085904,63251,45,1,0,
1,15,2090322,67669,15,7,0,
1,16,2096123,73470,95,5,0,
1,17,2101543,78890,45,9,1,569
1,18,2111365,88712,95,1,0,
1,19,2115382,92729,25,8,0,
1,20,2120202,97549,5,5,0,
1,21,2125620,102967,55,9,1,691
1,22,2129838,107185,55,6,0,
1,23,2135257,112604,35,1,0,
1,24,2140259,117606,65,2,0,
1,25,2144078,121425,65,5,0,
1,26,2148295,125642,35,3,1,562
1,27,2153115,130462,5,4,0,
1,28,2158133,135480,95,7,0,
1,29,2162551,139898,85,8,0,
1,30,2169071,146418,85,9,1,646
1,31,2173189,150536,75,5,0,
1,32,2177307,154654,95,8,0,
1,33,2182926,160273,25,2,0,
1,34,2187145,164492,65,6,1,610
1,35,2191663,169010,45,4,0,
1,36,2196282,173629,85,1,0,
1,37,2202601,179948,65,1,0,
1,38,2206719,184066,65,3,1,952
1,39,2217140,194487,5,3,0,
1,40,2221558,198905,5,2,0,
1,41,2226677,204024,95,2,0,
1,42,2231479,208826,35,2,0,
1,43,2235497,212844,55,2,0,
1,44,2250220,227567,95,6,1,733
1,45,2254421,231768,55,5,0,
1,46,2259440,236787,25,4,0,
1,47,2265259,242606,95,9,1,833
1,48,2268877,246224,45,3,0,
1,49,2274596,251943,55,7,0,
1,50,2279915,257262,15,3,0,
1,51,2284534,261881,5,8,0,
1,52,2289152,266499,85,7,0,
1,53,2293170,270517,55,3,0,
1,54,2298189,275536,55,4,0,
1,55,2303308,280655,45,7,0,
1,56,2307626,284973,35,6,0,
1,57,2312645,289992,35,7,0,
1,58,2316663,294010,85,3,1,580
1,59,2322982,300329,15,8,0,
1,60,2326600,303947,75,6,1,547
1,61,2332019,309366,25,9,0,
1,62,2336537,313884,25,6,0,
1,63,2341956,319303,25,5,0,
1,64,2347359,324706,45,5,0,
1,65,2350960,328307,55,1,0,
1,66,2356479,333826,85,5,0,
1,67,2361598,338945,65,8,0,
1,68,2364915,342262,15,5,0,
1,69,2371135,348482,85,4,0,
1,70,2380656,358003,25,7,0,
1,71,2385974,363321,5,7,0,
1,72,2389392,366739,95,3,1,624
1,73,2395111,372458,15,1,0,
1,74,2400213,377560,55,6,0,
1,75,2403615,380962,55,7,0,
1,76,2409434,386781,5,1,0,
1,77,2413852,391199,45,6,0,
1,78,2418571,395918,75,8,0,
1,79,2424273,401620,75,2,0,
1,80,2433893,411240,35,5,0,
1,81,2437411,414758,5,9,1,932
1,82,2442513,419860,35,8,0,
1,83,2446915,424262,45,7,0,
1,84,2451817,429164,45,3,0,
1,85,2456836,434183,25,1,0,
1,86,2462638,439985,85,2,0,
1,87,2466140,443487,95,2,0,
1,88,2470942,448289,5,9,0,
1,89,2477161,454508,75,7,0,
1,90,2480779,458126,75,9,1,556
1,91,2486297,463644,65,7,0,
1,92,2491400,468747,5,6,0,
1,93,2495318,472665,15,9,0,
2,1,2619434,1647,25,5,0,
2,2,2623636,5849,45,6,0,
2,3,2628738,10951,85,3,1,537
2,4,2633240,15453,55,4,0,
2,5,2637842,20055,45,4,0,
2,6,2648245,30458,95,7,0,
2,7,2653448,35661,25,2,0,
2,8,2657950,40163,35,9,0,
2,9,2662869,45082,15,2,0,
2,10,2667587,49800,65,4,0,
2,11,2671305,53518,75,3,1,873
2,12,2677108,59321,85,1,0,
2,13,2681709,63922,95,1,1,745
2,14,2685210,67423,35,6,0,
2,15,2690113,72326,35,9,0,
2,16,2699633,81846,15,4,0,
2,17,2705435,87648,55,8,0,
2,18,2710938,93151,15,4,0,
2,19,2719941,102154,55,2,0,
2,20,2724143,106356,75,2,0,
2,21,2729428,111641,55,5,0,
2,22,2734913,117126,75,1,0,
2,23,2738515,120728,65,2,0,
2,24,2743517,125730,45,9,1,680
2,25,2748419,130632,5,8,0,
2,26,2753822,136035,5,5,0,
2,27,2758923,141136,95,4,1,1072
2,28,2763725,145938,65,7,0,
2,29,2766927,149140,5,2,0,
2,30,2771729,153942,25,9,0,
2,31,2777131,159344,55,3,1,752
2,32,2782133,164346,75,5,0,
2,33,2787635,169848,85,9,1,616
2,34,2791737,173950,15,1,0,
2,35,2796838,179051,15,6,1,3342
2,36,2802241,184454,55,9,1,598
2,37,2806943,189156,25,7,0,
2,38,2810144,192357,45,5,0,
2,39,2816546,198759,95,5,0,
2,40,2821232,203445,35,3,0,
2,41,2825734,207947,95,3,1,556
2,42,2830236,212449,85,8,0,
2,43,2834637,216850,75,4,0,
2,44,2838939,221152,35,4,0,
2,45,2843941,226154,45,1,0,
2,46,2849926,232139,55,1,0,
2,47,2854128,236341,15,5,1,1039
2,48,2858130,240343,65,5,1,2051
2,49,2864632,246845,35,2,0,
2,50,2869217,251430,5,4,0,
2,51,2872819,255032,25,8,0,
2,52,2877421,259634,5,3,0,
2,53,2883923,266136,5,1,0,
2,54,2887625,269838,85,4,0,
2,55,2893227,275440,25,3,0,
2,56,2896328,278541,95,8,0,
2,57,2901330,283543,55,7,0,
2,58,2912218,294431,65,3,1,908
2,59,2915919,298132,45,2,0,
2,60,2920522,302735,15,9,0,
2,61,2926924,309137,5,7,0,
2,62,2930925,313138,15,8,0,
2,63,2935828,318041,15,7,0,
2,64,2941530,323743,55,4,0,
2,65,2946032,328245,85,2,0,
2,66,2950333,332546,65,6,1,3448
2,67,2954135,336348,5,3,0,
2,68,2959036,341249,5,1,0,
2,69,2963639,345852,45,8,0,
2,70,2969841,352054,75,7,0,
2,71,2975143,357356,85,6,1,593
2,72,2978645,360858,85,7,0,
2,73,2983447,365660,85,5,0,
2,74,2988449,370662,5,6,0,
2,75,2992550,374763,45,7,0,
2,76,2998052,380265,35,7,0,
2,77,3003454,385667,35,8,0,
2,78,3007956,390169,45,3,0,
2,79,3011858,394071,95,6,1,686
2,80,3017661,399874,55,5,0,
2,81,3022962,405175,45,1,0,
2,82,3027264,409477,5,2,0,
2,83,3031866,414079,25,1,0,
2,84,3035667,417880,55,8,0,
2,85,3041169,423382,45,2,0,
2,86,3050074,432287,35,1,0,
2,87,3056076,438289,15,2,0,
2,88,3059877,442090,95,9,1,688
2,89,3065480,447693,65,8,0,
2,90,3069881,452094,25,4,0,
2,91,3075883,458096,25,6,0,
2,92,3080385,462598,65,4,0,
2,93,3085387,467600,65,9,1,544
2,94,3089689,471902,75,6,1,817
3,1,3253421,1728,55,2,0,
3,2,3256823,5130,5,4,1,855
3,3,3262925,11232,45,9,1,1021
3,4,3266426,14733,95,1,0,
3,5,3272729,21036,85,4,0,
3,6,3277331,25638,95,5,1,707
3,7,3281632,29939,65,1,0,
3,8,3285934,34241,5,7,0,
3,9,3291437,39744,25,1,0,
3,10,3295638,43945,55,3,1,642
3,11,3300941,49248,15,3,0,
3,12,3305243,53550,35,5,1,836
3,13,3314929,63236,95,2,0,
3,14,3320532,68839,95,9,1,539
3,15,3325034,73341,5,8,0,
3,16,3329736,78043,65,9,1,670
3,17,3335137,83444,75,3,1,594
3,18,3343141,91448,15,7,0,
3,19,3352844,101151,5,9,0,
3,20,3357546,105853,85,2,1,634
3,21,3367651,115958,85,9,1,514
3,22,3373653,121960,55,6,1,989
3,23,3377954,126261,75,9,1,495
3,24,3381456,129763,65,4,1,821
3,25,3387659,135966,25,4,1,893
3,26,3391360,139667,35,3,0,
3,27,3396161,144468,85,7,1,4326
3,28,3401163,149470,55,9,0,
3,29,3405465,153772,5,5,1,678
3,30,3411068,159375,75,8,0,
3,31,3416370,164677,25,7,0,
3,32,3421572,169879,45,8,0,
3,33,3426574,174881,15,2,0,
3,34,3434477,182784,85,3,1,576
3,35,3439079,187386,25,3,0,
3,36,3444081,192388,55,1,0,
3,37,3450383,198690,45,6,0,
3,38,3453885,202192,45,5,1,1290
3,39,3459887,208194,65,7,0,
3,40,3463389,211696,35,7,0,
3,41,3469174,217481,15,8,0,
3,42,3473876,222183,75,8,0,
3,43,3478878,227185,75,9,1,575
3,44,3483480,231787,15,6,1,690
3,45,3487581,235888,15,1,0,
3,46,3492467,240774,55,8,0,
3,47,3498169,246476,95,7,0,
3,48,3502371,250678,35,8,0,
3,49,3506172,254479,65,8,0,
3,50,3515977,264284,5,7,0,
3,51,3520578,268885,5,9,0,
3,52,3526781,275088,65,1,0,
3,53,3530783,279090,55,5,0,
3,54,3536385,284692,85,8,0,
3,55,3540786,289093,25,6,1,1495
3,56,3545788,294095,45,4,0,
3,57,3550574,298881,55,4,0,
3,58,3555276,303583,55,9,1,571
3,59,3559177,307484,85,6,1,609
3,60,3565280,313587,45,4,1,612
3,61,3569081,317388,5,6,1,786
3,62,3574784,323091,5,1,0,
3,63,3578885,327192,25,9,0,
3,64,3583487,331794,35,5,1,4201
3,65,3589589,337896,55,7,0,
3,66,3593891,342198,75,6,1,668
3,67,3598993,347300,65,3,1,606
3,68,3602294,350601,35,6,0,
3,69,3608496,356803,5,3,0,
3,70,3611798,360105,45,8,0,
3,71,3618401,366708,15,3,0,
3,72,3622302,370609,65,6,1,652
3,73,3628105,376412,95,8,0,
3,74,3631406,379713,85,1,0,
3,75,3636708,385015,75,5,0,
3,76,3642111,390418,15,5,1,785
3,77,3646812,395119,25,8,0,
3,78,3651414,399721,25,2,0,
3,79,3655215,403522,25,5,1,723
3,80,3661518,409825,85,5,0,
3,81,3665803,414110,95,4,0,
3,82,3670805,419112,65,2,0,
3,83,3676007,424314,55,3,0,
3,84,3680609,428916,5,4,1,1118
3,85,3685811,434118,35,1,0,
3,86,3688812,437119,75,2,0,
3,87,3695215,443522,65,5,0,
3,88,3698916,447223,35,2,0,
3,89,3704802,453109,15,4,1,704
3,90,3708703,457010,25,5,1,789
3,91,3714506,462813,65,2,0,
3,92,3718608,466915,5,5,0,
3,93,3722209,470516,85,5,0,
4,1,3880906,1127,45,9,1,1715
4,2,3885207,5428,75,1,0,
4,3,3891110,11331,65,8,0,
4,4,3895911,16132,25,3,0,
4,5,3899096,19317,35,9,1,1133
4,6,3910601,30822,45,7,0,
4,7,3914886,35107,15,9,0,
4,8,3918587,38808,85,1,0,
4,9,3923190,43411,75,7,0,
4,10,3928692,48913,75,3,1,797
4,11,3934394,54615,55,6,1,951
4,12,3937995,58216,5,2,0,
4,13,3943997,64218,5,8,0,
4,14,3947700,67921,65,9,1,1061
4,15,3953402,73623,55,2,0,
4,16,3956903,77124,45,5,0,
4,17,3962805,83026,65,5,0,
4,18,3967707,87928,65,7,0,
4,19,3971708,91929,25,7,0,
4,20,3977594,97815,5,7,0,
4,21,3981396,101617,15,7,0,
4,22,3985598,105819,45,6,0,
4,23,3995602,115823,65,3,1,1022
4,24,4001804,122025,85,8,0,
4,25,4006506,126727,35,4,0,
4,26,4010707,130928,15,2,0,
4,27,4015910,136131,65,1,0,
4,28,4020112,140333,85,2,0,
4,29,4023813,144034,85,4,1,2367
4,30,4029015,149236,55,7,0,
4,31,4035217,155438,55,9,1,811
4,32,4039820,160041,15,5,0,
4,33,4043321,163542,45,2,0,
4,34,4049423,169644,25,9,0,
4,35,4053225,173446,85,7,0,
4,36,4058427,178648,85,6,1,3753
4,37,4064129,184350,95,3,1,619
4,38,4068031,188252,75,4,0,
4,39,4072132,192353,15,6,1,830
4,40,4077334,197555,15,8,0,
4,41,4082237,202458,85,3,1,704
4,42,4086338,206559,35,6,1,555
4,43,4091540,211761,5,3,0,
4,44,4096041,216262,35,7,0,
4,45,4102144,222365,75,5,0,
4,46,4105645,225866,5,9,0,
4,47,4110348,230569,65,6,1,689
4,48,4115450,235671,95,6,1,704
4,49,4121652,241873,85,9,1,645
4,50,4124654,244875,65,4,0,
4,51,4130356,250577,15,3,0,
4,52,4135658,255879,5,1,0,
4,53,4144361,264582,75,4,0,
4,54,4149263,269484,75,3,1,573
4,55,4153564,273785,55,5,0,
4,56,4159667,279888,5,2,0,
4,57,4163368,283589,95,4,0,
4,58,4168453,288674,25,4,1,717
4,59,4172656,292877,95,3,1,810
4,60,4177457,297678,95,2,0,
4,61,4187362,307583,85,3,1,678
4,62,4192264,312485,95,8,0,
4,63,4197566,317787,25,1,0,
4,64,4201667,321888,35,8,0,
4,65,4206353,326574,45,1,0,
4,66,4217840,338061,45,3,0,
4,67,4222342,342563,5,5,1,1017
4,68,4230646,350867,25,2,0,
4,69,4236648,356869,85,6,1,1076
4,70,4241450,361671,45,8,0,
4,71,4246352,366573,35,9,0,
4,72,4250154,370375,25,6,1,1340
4,73,4255255,375476,45,5,0,
4,74,4260858,381079,5,8,0,
4,75,4264259,384480,55,1,0,
4,76,4270062,390283,95,1,0,
4,77,4274263,394484,15,9,0,
4,78,4279665,399886,25,8,0,
4,79,4283750,403971,75,8,0,
4,80,4288953,409174,55,3,1,782
4,81,4294454,414675,5,6,1,1865
4,82,4297756,417977,15,4,1,787
4,83,4303758,423979,5,4,1,1026
4,84,4307960,428181,95,5,0,
4,85,4313062,433283,45,1,0,
4,86,4318247,438468,25,6,0,
4,87,4327952,448173,65,8,0,
4,88,4331453,451674,65,4,0,
4,89,4337138,457359,75,6,1,719
4,90,4342441,462662,65,2,0,
4,91,4346743,466964,25,1,0,
4,92,4352144,472365,95,6,1,685
