run,trial,global time,run time,morph level,couple,response,response time
1,1,436793,432,95,7,1,721
1,2,442896,6535,75,4,1,563
1,3,445997,9636,55,1,1,963
1,4,450898,14537,95,9,1,685
1,5,457102,20741,75,1,1,531
1,6,461503,25142,15,3,0,
1,7,465604,29243,55,6,1,498
1,8,470906,34545,25,4,1,646
1,9,476209,39848,35,2,0,
1,10,479710,43349,65,1,1,587
1,11,485713,49352,45,4,1,667
1,12,489814,53453,85,7,1,681
1,13,495816,59455,35,1,1,903
1,14,498818,62457,75,8,1,644
1,15,504320,67959,25,8,1,2217
1,16,514924,78563,65,7,1,745
1,17,518326,81965,35,4,0,
1,18,524128,87767,45,2,1,618
1,19,529047,92686,85,2,1,655
1,20,534165,97804,55,9,0,
1,21,537566,101205,55,2,1,714
1,22,543770,107409,25,5,0,
1,23,547571,111210,5,1,0,
1,24,552272,115911,5,7,0,
1,25,562877,126516,95,1,1,575
1,26,567979,131618,15,9,1,859
1,27,572664,136303,75,9,1,758
1,28,576065,139704,65,8,1,715
1,29,582168,145807,95,2,1,620
1,30,585569,149208,35,9,0,
1,31,591655,155294,35,3,0,
1,32,594957,158596,55,5,1,808
1,33,600559,164198,25,3,0,
1,34,605161,168800,75,5,1,512
1,35,609862,173501,85,4,1,562
1,36,615365,179004,35,6,0,
1,37,619267,182906,15,6,0,
1,38,623868,187507,85,6,1,553
1,39,630070,193709,65,2,1,961
1,40,639675,203314,5,9,0,
1,41,643776,207415,65,3,1,551
1,42,649578,213217,85,8,1,536
1,43,652680,216319,95,5,1,484
1,44,657882,221521,65,6,1,957
1,45,663784,227423,85,9,1,480
1,46,671987,235626,35,5,1,535
1,47,677790,241429,25,2,0,
1,48,682992,246631,5,2,0,
1,49,691695,255334,55,3,1,790
1,50,701283,264922,35,7,0,
1,51,706185,269824,75,3,1,1354
1,52,710387,274026,15,5,0,
1,53,715188,278827,15,4,0,
1,54,721476,285115,45,7,0,
1,55,724676,288315,15,7,0,
1,56,730661,294300,15,1,0,
1,57,735446,299085,5,4,0,
1,58,739448,303087,85,5,1,473
1,59,744650,308289,55,8,1,913
1,60,748952,312591,85,3,1,572
1,61,754254,317893,25,1,0,
1,62,759640,323279,75,6,1,475
1,63,763541,327180,75,7,1,3998
1,64,768243,331882,55,4,1,568
1,65,773545,337184,65,4,1,965
1,66,778147,341786,5,3,0,
1,67,783649,347288,35,8,0,
1,68,787851,351490,95,8,1,921
1,69,793453,357092,95,4,1,920
1,70,796654,360293,45,8,0,
1,71,802740,366379,25,6,1,947
1,72,806825,370464,55,7,0,
1,73,811527,375166,5,6,0,
1,74,815829,379468,95,3,1,491
1,75,820631,384270,75,2,1,548
1,76,825732,389371,55,6,1,921
1,77,831035,394674,45,6,1,940
1,78,834937,398576,75,9,1,669
1,79,840739,404378,95,6,1,585
1,80,845041,408680,45,5,1,905
1,81,850643,414282,45,1,0,
1,82,855829,419468,65,9,1,609
1,83,860330,423969,35,5,0,
1,84,865232,428871,15,2,0,
1,85,868533,432172,25,7,0,
1,86,873735,437374,45,9,0,
1,87,883840,447479,65,5,1,613
1,88,889542,453181,85,1,1,509
1,89,894244,457883,95,5,1,478
1,90,898045,461684,5,5,0,
1,91,902932,466571,45,3,0,
1,92,907532,471171,5,8,0,
1,93,907532,471171,5,8,0,
2,1,1020661,1022,55,2,1,564
2,2,1024663,5024,45,1,0,
2,3,1030448,10809,35,4,1,535
2,4,1034650,15011,35,2,0,
2,5,1040836,21197,65,7,1,637
2,6,1045121,25482,65,1,1,591
2,7,1050223,30584,25,9,0,
2,8,1058627,38988,45,5,0,
2,9,1064529,44890,25,8,0,
2,10,1072732,53093,55,5,1,718
2,11,1082636,62997,25,4,0,
2,12,1086838,67199,55,3,1,604
2,13,1092840,73201,95,8,1,667
2,14,1098343,78704,5,7,0,
2,15,1102444,82805,25,5,0,
2,16,1107946,88307,35,6,0,
2,17,1112832,93193,85,9,1,536
2,18,1115633,95994,65,4,1,625
2,19,1127221,107582,5,5,0,
2,20,1131522,111883,45,3,0,
2,21,1136225,116586,25,9,0,
2,22,1141627,121988,5,1,0,
2,23,1144527,124888,95,7,1,543
2,24,1149529,129890,75,8,0,
2,25,1155232,135593,95,4,1,961
2,26,1160434,140795,85,7,1,528
2,27,1163835,144196,35,3,0,
2,28,1168537,148898,15,8,0,
2,29,1173322,153683,15,4,0,
2,30,1178825,159186,75,3,1,503
2,31,1183127,163488,75,2,1,606
2,32,1188329,168690,55,1,0,
2,33,1194031,174392,75,5,1,467
2,34,1203535,183896,55,7,1,740
2,35,1206937,187298,15,5,0,
2,36,1212238,192599,65,9,0,
2,37,1218023,198384,5,3,0,
2,38,1222025,202386,75,6,1,942
2,39,1227011,207372,65,8,1,659
2,40,1231112,211473,85,2,1,492
2,41,1237215,217576,95,6,1,510
2,42,1241816,222177,75,1,1,586
2,43,1246219,226580,35,1,0,
2,44,1251421,231782,95,3,1,493
2,45,1256423,236784,5,8,0,
2,46,1259824,240185,25,6,0,
2,47,1264826,245187,35,7,0,
2,48,1270111,250472,75,7,1,508
2,49,1275613,255974,85,3,1,504
2,50,1279516,259877,75,4,1,914
2,51,1284817,265178,85,6,1,874
2,52,1288819,269180,15,2,0,
2,53,1294605,274966,95,1,1,478
2,54,1300007,280368,45,4,0,
2,55,1303809,284170,15,9,0,
2,56,1313496,293857,95,9,1,647
2,57,1318897,299258,65,6,1,955
2,58,1322800,303161,85,1,1,900
2,59,1328201,308562,45,8,0,
2,60,1331703,312064,65,3,1,911
2,61,1341407,321768,35,8,0,
2,62,1347009,327370,35,9,0,
2,63,1351110,331471,5,2,0,
2,64,1360698,341059,25,2,0,
2,65,1366784,347145,55,8,0,
2,66,1370285,350646,55,9,0,
2,67,1380489,360850,55,4,1,500
2,68,1385691,366052,95,2,1,964
2,69,1390293,370654,45,7,0,
2,70,1394079,374440,45,2,0,
2,71,1400165,380526,15,8,0,
2,72,1404466,384827,15,7,0,
2,73,1409567,389928,85,4,1,927
2,74,1414753,395114,25,7,0,
2,75,1417954,398315,75,4,1,926
2,76,1423240,403601,85,5,1,925
2,77,1429542,409903,45,6,1,853
2,78,1433944,414305,5,6,0,
2,79,1438946,419307,65,2,1,767
2,80,1443848,424209,35,8,0,
2,81,1447350,427711,95,4,1,486
2,82,1453052,433413,85,8,1,521
2,83,1456354,436715,5,9,0,
2,84,1462155,442516,55,3,1,611
2,85,1467058,447419,65,5,1,960
2,86,1472560,452921,5,4,0,
2,87,1477262,457623,45,9,0,
2,88,1480362,460723,15,6,0,
2,89,1486065,466426,15,3,0,
2,90,1491150,471511,25,1,0,
2,91,1491150,471511,25,1,0,
3,1,1591207,1235,85,4,1,538
3,2,1595009,5037,65,1,1,623
3,3,1599911,9939,95,2,1,522
3,4,1605313,15341,25,3,0,
3,5,1610115,20143,35,4,0,
3,6,1615117,25145,65,8,1,501
3,7,1619919,29947,85,9,1,519
3,8,1624621,34649,35,9,0,
3,9,1628822,38850,55,4,1,571
3,10,1635024,45052,55,7,0,
3,11,1639610,49638,95,9,1,3137
3,12,1644112,54140,15,1,0,
3,13,1648014,58042,85,3,1,587
3,14,1653315,63343,5,2,0,
3,15,1658117,68145,5,3,0,
3,16,1662819,72847,55,9,0,
3,17,1667204,77232,45,6,1,956
3,18,1672990,83018,85,5,1,540
3,19,1677992,88020,35,5,0,
3,20,1690897,100925,65,6,1,958
3,21,1696883,106911,95,3,1,472
3,22,1701485,111513,5,7,0,
3,23,1707070,117098,5,1,0,
3,24,1711855,121883,35,7,0,
3,25,1715257,125285,45,1,0,
3,26,1720159,130187,75,1,1,965
3,27,1724744,134772,75,6,1,484
3,28,1730347,140375,75,3,1,515
3,29,1735349,145377,35,1,0,
3,30,1739351,149379,15,9,0,
3,31,1743652,153680,65,4,1,945
3,32,1748654,158682,75,7,1,777
3,33,1755057,165085,95,6,1,964
3,34,1759258,169286,65,5,1,943
3,35,1767962,177990,25,2,0,
3,36,1773063,183091,75,9,0,
3,37,1777849,187877,65,2,1,511
3,38,1783551,193579,65,9,0,
3,39,1787653,197681,95,5,1,487
3,40,1792154,202182,55,1,1,610
3,41,1796757,206785,95,8,1,846
3,42,1801559,211587,5,4,0,
3,43,1806561,216589,45,5,0,
3,44,1812063,222091,75,5,1,3484
3,45,1815964,225992,85,7,1,592
3,46,1820566,230594,25,1,0,
3,47,1825769,235797,25,5,0,
3,48,1830470,240498,45,7,0,
3,49,1836572,246600,75,8,1,583
3,50,1844476,254504,15,4,0,
3,51,1854080,264108,85,1,1,659
3,52,1860382,270410,95,7,1,514
3,53,1865284,275312,15,7,0,
3,54,1869086,279114,5,9,0,
3,55,1873388,283416,25,9,0,
3,56,1879573,289601,85,6,1,591
3,57,1888860,298888,65,3,1,999
3,58,1893062,303090,65,7,1,524
3,59,1898964,308992,5,5,0,
3,60,1903767,313795,95,1,1,579
3,61,1908368,318396,85,2,1,477
3,62,1911869,321897,35,2,0,
3,63,1917172,327200,25,6,0,
3,64,1926375,336403,35,6,0,
3,65,1932778,342806,95,8,1,710
3,66,1937080,347108,55,5,1,578
3,67,1940481,350509,45,4,0,
3,68,1946467,356495,35,3,0,
3,69,1950668,360696,25,3,0,
3,70,1956271,366299,55,6,1,475
3,71,1960172,370200,95,7,1,515
3,72,1964574,374602,35,3,0,
3,73,1969359,379387,15,8,0,
3,74,1974261,384289,45,8,0,
3,75,1979264,389292,85,8,1,584
3,76,1983665,393693,45,2,0,
3,77,1989167,399195,45,9,0,
3,78,1993269,403297,5,6,0,
3,79,1999854,409882,15,2,0,
3,80,2003356,413384,55,8,0,
3,81,2008242,418270,55,2,1,621
3,82,2014144,424172,75,2,1,602
3,83,2018245,428273,45,3,0,
3,84,2023748,433776,85,5,1,961
3,85,2027149,437177,45,1,0,
3,86,2032352,442380,25,7,0,
3,87,2037354,447382,85,6,1,483
3,88,2043056,453084,55,8,1,849
3,89,2046157,456185,15,6,0,
3,90,2057261,467289,65,3,1,506
3,91,2061463,471491,65,6,1,501
3,92,2061463,471491,65,6,0,
4,1,2164271,1337,85,1,1,938
4,2,2168372,5438,5,8,0,
4,3,2173175,10241,45,5,1,477
4,4,2178977,16043,15,5,0,
4,5,2183379,20445,55,2,1,642
4,6,2188080,25146,95,2,1,483
4,7,2193282,30348,25,8,0,
4,8,2197784,34850,25,4,0,
4,9,2206972,44038,5,7,0,
4,10,2211373,48439,75,7,1,523
4,11,2217376,54442,35,7,0,
4,12,2226879,63945,45,4,0,
4,13,2232081,69147,95,1,1,499
4,14,2236383,73449,45,7,0,
4,15,2239984,77050,75,8,1,526
4,16,2245787,82853,65,7,1,664
4,17,2250789,87855,5,5,0,
4,18,2255574,92640,25,5,0,
4,19,2265378,102444,95,9,1,501
4,20,2268779,105845,85,3,1,527
4,21,2275382,112448,15,3,0,
4,22,2278783,115849,55,3,1,473
4,23,2288287,125353,75,3,1,566
4,24,2292989,130055,75,2,1,535
4,25,2298792,135858,85,9,1,479
4,26,2303193,140259,65,4,1,562
4,27,2307095,144161,55,5,1,550
4,28,2312897,149963,35,9,0,
4,29,2317883,154949,65,1,1,1025
4,30,2322984,160050,15,1,0,
4,31,2332071,169137,35,2,0,
4,32,2336974,174040,55,9,0,
4,33,2340875,177941,55,1,0,
4,34,2346461,183527,15,5,0,
4,35,2350563,187629,15,4,0,
4,36,2361650,198716,45,3,0,
4,37,2365035,202101,45,9,0,
4,38,2370320,207386,85,2,1,916
4,39,2375605,212671,75,4,1,492
4,40,2380008,217074,35,4,0,
4,41,2385010,222076,35,6,0,
4,42,2388511,225577,25,4,0,
4,43,2394212,231278,85,8,1,526
4,44,2398214,235280,95,3,1,470
4,45,2404316,241382,95,4,1,958
4,46,2417788,254854,65,5,1,947
4,47,2422490,259556,15,7,0,
4,48,2428176,265242,15,2,0,
4,49,2432678,269744,75,9,1,564
4,50,2437680,274746,65,8,1,638
4,51,2442682,279748,55,4,1,548
4,52,2446184,283250,15,6,0,
4,53,2452485,289551,95,6,1,957
4,54,2457088,294154,5,4,0,
4,55,2461689,298755,5,6,0,
4,56,2466691,303757,95,5,1,960
4,57,2471977,309043,75,1,1,626
4,58,2476179,313245,75,5,1,3528
4,59,2481681,318747,25,6,0,
4,60,2486282,323348,85,7,1,634
4,61,2490685,327751,45,6,1,787
4,62,2495286,332352,15,9,0,
4,63,2499371,336437,65,2,1,1937
4,64,2503973,341039,25,8,0,
4,65,2509575,346641,55,6,1,521
4,66,2513877,350943,65,9,1,659
4,67,2519880,356946,35,8,0,
4,68,2523581,360647,25,3,0,
4,69,2528866,365932,15,8,0,
4,70,2532868,369934,85,4,1,962
4,71,2537570,374636,65,2,1,540
4,72,2542172,379238,65,7,1,718
4,73,2547474,384540,95,6,1,470
4,74,2552676,389742,5,1,0,
4,75,2557277,394343,45,8,0,
4,76,2562980,400046,45,2,1,557
4,77,2567982,405048,5,8,0,
4,78,2571584,408650,55,7,0,
4,79,2577286,414352,55,3,1,733
4,80,2581688,418754,55,4,1,575
4,81,2587090,424156,65,5,1,494
4,82,2590491,427557,85,9,1,482
4,83,2595493,432559,25,7,0,
4,84,2600195,437261,25,1,0,
4,85,2606397,443463,75,6,1,963
4,86,2610683,447749,5,9,1,3424
4,87,2615385,452451,25,2,0,
4,88,2619286,456352,35,1,0,
4,89,2624371,461437,5,3,0,
4,90,2634560,471626,65,3,1,490
4,91,2634560,471626,65,3,0,
5,1,2634560,-105004,65,3,0,
